trial	ons(s)	stim_id	stim      	cond    	dur 	rt  	acc 	resp    	cresp   
1   	51.5  	1   	3  +  9   	---     	1.851	1.013	1   	even    	even    
2   	53.5  	2   	3  +  8   	---     	1.853	0.717	1   	odd     	odd     
3   	55.5  	3   	5  +  9   	---     	1.851	0.845	1   	even    	even    
trial	ons(s)	stim_id	stim      	cond    	dur 	rt  	acc 	resp    	cresp   
1   	73.4  	1   	5  +  9   	---     	1.851	1.583	1   	even    	even    
2   	75.4  	2   	6  +  9   	---     	1.851	0.751	1   	odd     	odd     
3   	77.4  	3   	8  +  3   	---     	1.851	0.743	1   	odd     	odd     
trial	ons(s)	stim_id	stim      	cond    	dur 	rt  	acc 	resp    	cresp   
1   	95.4  	1   	7  +  4   	---     	1.85	1.112	1   	odd     	odd     
2   	97.4  	2   	5  +  9   	---     	1.851	0.599	1   	even    	even    
3   	99.4  	3   	9  +  6   	---     	1.855	0.745	1   	odd     	odd     
trial	ons(s)	stim_id	stim      	cond    	dur 	rt  	acc 	resp    	cresp   
1   	117.4 	1   	8  +  8   	---     	1.85	0.832	1   	even    	even    
2   	119.4 	2   	7  +  7   	---     	1.85	0.639	1   	even    	even    
3   	121.4 	3   	3  +  8   	---     	1.85	0.671	1   	odd     	odd     
trial	ons(s)	stim_id	stim      	cond    	dur 	rt  	acc 	resp    	cresp   
1   	139.4 	1   	9  +  4   	---     	1.852	1.015	1   	odd     	odd     
2   	141.4 	2   	9  +  7   	---     	1.852	0.88	1   	even    	even    
3   	143.4 	2   	9  +  7 (repeat 1)	---     	1.85	0.584	1   	even    	even    
trial	ons(s)	stim_id	stim      	cond    	dur 	rt  	acc 	resp    	cresp   
1   	161.4 	1   	4  +  7   	---     	1.851	1.144	1   	odd     	odd     
2   	163.4 	2   	7  +  5   	---     	1.851	0.608	1   	even    	even    
3   	165.4 	3   	3  +  8   	---     	1.851	0.672	1   	odd     	odd     
trial	ons(s)	stim_id	stim      	cond    	dur 	rt  	acc 	resp    	cresp   
1   	183.4 	1   	9  +  4   	---     	1.85	0.928	1   	odd     	odd     
2   	185.4 	2   	9  +  6   	---     	1.852	0.832	1   	odd     	odd     
3   	187.4 	3   	8  +  3   	---     	1.851	0.656	1   	odd     	odd     
trial	ons(s)	stim_id	stim      	cond    	dur 	rt  	acc 	resp    	cresp   
1   	205.4 	1   	8  +  3   	---     	1.85	1.008	1   	odd     	odd     
2   	207.4 	2   	5  +  9   	---     	1.851	0.96	1   	even    	even    
3   	209.4 	3   	3  +  9   	---     	1.851	0.672	1   	even    	even    
trial	ons(s)	stim_id	stim      	cond    	dur 	rt  	acc 	resp    	cresp   
1   	227.4 	1   	8  +  5   	---     	1.851	1.136	1   	odd     	odd     
2   	229.4 	2   	2  +  9   	---     	1.85	0.768	1   	odd     	odd     
3   	231.4 	1   	8  +  5 (repeat 1)	---     	1.85	0.696	1   	odd     	odd     
trial	ons(s)	stim_id	stim      	cond    	dur 	rt  	acc 	resp    	cresp   
1   	249.4 	1   	9  +  9   	---     	1.85	0.872	1   	even    	even    
2   	251.4 	2   	6  +  8   	---     	1.85	0.713	1   	even    	even    
3   	253.4 	3   	8  +  4   	---     	1.85	0.609	1   	even    	even    
trial	ons(s)	stim_id	stim      	cond    	dur 	rt  	acc 	resp    	cresp   
1   	271.4 	1   	5  +  9   	---     	1.85	0.784	1   	even    	even    
2   	273.4 	2   	9  +  3   	---     	1.85	0.601	1   	even    	even    
3   	275.4 	3   	7  +  4   	---     	1.85	0.769	1   	odd     	odd     
trial	ons(s)	stim_id	stim      	cond    	dur 	rt  	acc 	resp    	cresp   
1   	293.4 	1   	5  +  8   	---     	1.85	0.929	1   	odd     	odd     
2   	295.4 	1   	5  +  8 (repeat 1)	---     	1.851	0.505	1   	odd     	odd     
3   	297.4 	2   	7  +  9   	---     	1.851	0.833	1   	even    	even    
trial	ons(s)	stim_id	stim      	cond    	dur 	rt  	acc 	resp    	cresp   
1   	315.4 	1   	7  +  7   	---     	1.85	0.993	1   	even    	even    
2   	317.4 	2   	9  +  2   	---     	1.85	0.873	1   	odd     	odd     
3   	319.4 	3   	8  +  4   	---     	1.85	0.617	1   	even    	even    
trial	ons(s)	stim_id	stim      	cond    	dur 	rt  	acc 	resp    	cresp   
1   	337.4 	1   	9  +  7   	---     	1.85	1.274	1   	even    	even    
2   	339.4 	2   	6  +  9   	---     	1.85	0.93	1   	odd     	odd     
3   	341.4 	3   	8  +  4   	---     	1.85	0.569	1   	even    	even    
trial	ons(s)	stim_id	stim      	cond    	dur 	rt  	acc 	resp    	cresp   
1   	359.4 	1   	4  +  8   	---     	1.852	0.737	1   	even    	even    
2   	361.4 	2   	4  +  7   	---     	1.852	0.529	1   	odd     	odd     
3   	363.4 	3   	7  +  5   	---     	1.85	0.642	1   	even    	even    
trial	ons(s)	stim_id	stim      	cond    	dur 	rt  	acc 	resp    	cresp   
1   	381.4 	1   	7  +  4   	---     	1.85	1.017	1   	odd     	odd     
2   	383.4 	2   	8  +  3   	---     	1.85	0.577	1   	odd     	odd     
3   	385.4 	3   	3  +  9   	---     	1.851	0.697	1   	even    	even    
trial	ons(s)	stim_id	stim      	cond    	dur 	rt  	acc 	resp    	cresp   
1   	403.4 	1   	6  +  7   	---     	1.85	0.953	1   	odd     	odd     
2   	405.4 	2   	7  +  8   	---     	1.85	0.665	1   	odd     	odd     
3   	407.4 	3   	3  +  8   	---     	1.85	0.705	1   	odd     	odd     
trial	ons(s)	stim_id	stim      	cond    	dur 	rt  	acc 	resp    	cresp   
1   	425.4 	1   	5  +  8   	---     	1.85	0.873	1   	odd     	odd     
2   	427.4 	2   	6  +  5   	---     	1.851	0.802	1   	odd     	odd     
3   	429.4 	3   	6  +  8   	---     	1.85	0.657	1   	even    	even    
trial	ons(s)	stim_id	stim      	cond    	dur 	rt  	acc 	resp    	cresp   
1   	447.4 	1   	9  +  9   	---     	1.851	1.01	1   	even    	even    
2   	449.4 	2   	9  +  5   	---     	1.85	0.834	1   	even    	even    
3   	451.4 	3   	7  +  6   	---     	1.85	0.498	1   	odd     	odd     
trial	ons(s)	stim_id	stim      	cond    	dur 	rt  	acc 	resp    	cresp   
1   	469.4 	1   	6  +  5   	---     	1.851	1.498	1   	odd     	odd     
2   	471.4 	2   	4  +  7   	---     	1.85	0.626	1   	odd     	odd     
3   	473.4 	3   	7  +  5   	---     	1.85	0.834	1   	even    	even    
